Folder: TASHEEH/Datasets/Mendeley

Note: Datasets/Mendeley/MND_003.txt
Date	INDICATORS_BCI_M	INDICATORS_CCI_M
1980-01-01	101.6588	NA
1980-02-01	101.6209	NA
1980-03-01	101.5946	NA
1980-04-01	101.5854	NA
1980-05-01	101.5694	NA
1980-06-01	101.5064	NA
1980-07-01	101.3602	NA
1980-08-01	101.1654	NA
1980-09-01	100.9607	NA
1980-10-01	100.771	NA
1980-11-01	100.5984	NA
1980-12-01	100.4441	NA
1981-01-01	100.3107	NA
1981-02-01	100.1887	NA
1981-03-01	100.071	NA
1981-04-01	99.95689	NA
1981-05-01	99.85085	NA
1981-06-01	99.76598	NA
1981-07-01	99.71864	NA
1981-08-01	99.70203	NA
1981-09-01	99.71587	NA
1981-10-01	99.76519	NA
1981-11-01	99.82868	NA
1981-12-01	99.88091	NA
1982-01-01	99.90019	NA
1982-02-01	99.88786	NA
1982-03-01	99.83813	NA
1982-04-01	99.73958	100.3671
1982-05-01	99.61403	100.1833
1982-06-01	99.48234	100.0129
1982-07-01	99.3571	99.88342
1982-08-01	99.24156	99.82497
1982-09-01	99.13935	99.8167
1982-10-01	99.05456	99.84547
1982-11-01	98.97847	99.91399
1982-12-01	98.90349	100.0121
1983-01-01	98.82834	100.1395
1983-02-01	98.76221	100.299
1983-03-01	98.72509	100.4606
1983-04-01	98.73904	100.5842
1983-05-01	98.79057	100.6406
1983-06-01	98.8717	100.6708
1983-07-01	98.98341	100.7293
1983-08-01	99.10964	100.8541
1983-09-01	99.23705	101.008
1983-10-01	99.36037	101.1367
1983-11-01	99.48649	101.1972
1983-12-01	99.62906	101.2116
1984-01-01	99.80013	101.207
1984-02-01	99.98547	101.2007
1984-03-01	100.1664	101.2053
1984-04-01	100.3271	101.2344
1984-05-01	100.4671	101.2985
1984-06-01	100.5807	101.3754
1984-07-01	100.6581	101.4381
1984-08-01	100.7123	101.4685
1984-09-01	100.7527	101.4862
1984-10-01	100.7804	101.5185
1984-11-01	100.7989	101.5819
1984-12-01	100.8065	101.6508
1985-01-01	100.7983	101.6845
1985-02-01	100.7784	101.6499
1985-03-01	100.7486	101.5792
1985-04-01	100.7072	101.5132
1985-05-01	100.6589	101.4806
1985-06-01	100.6059	101.4725
1985-07-01	100.5464	101.4756
1985-08-01	100.4777	101.4798
1985-09-01	100.3909	101.4752
1985-10-01	100.2761	101.4481
1985-11-01	100.145	101.3855
1985-12-01	100.0083	101.3021
1986-01-01	99.8715	101.2118
1986-02-01	99.73395	101.1195
1986-03-01	99.59263	101.0204
1986-04-01	99.44581	100.9006
1986-05-01	99.30071	100.7456
1986-06-01	99.17008	100.5681
1986-07-01	99.06704	100.3809
1986-08-01	98.9855	100.1914
1986-09-01	98.9235	100.0068
1986-10-01	98.88513	99.84052
1986-11-01	98.86281	99.71424
1986-12-01	98.85401	99.64185
1987-01-01	98.86197	99.66426
1987-02-01	98.88283	99.83051
1987-03-01	98.91856	100.0842
1987-04-01	98.97701	100.3708
1987-05-01	99.05695	100.6583
1987-06-01	99.16744	100.9243
1987-07-01	99.32543	101.1421
1987-08-01	99.52306	101.289
1987-09-01	99.76304	101.4023
1987-10-01	100.0545	101.5233
1987-11-01	100.3665	101.6758
1987-12-01	100.6629	101.8361
1988-01-01	100.9172	101.9631
1988-02-01	101.1421	102.0207
1988-03-01	101.3508	102.0333
1988-04-01	101.5461	102.0282
1988-05-01	101.7267	102.0231
1988-06-01	101.8805	102.0311
1988-07-01	101.9919	102.0659
1988-08-01	102.0765	102.1338
1988-09-01	102.1482	102.1984
1988-10-01	102.212	102.205
1988-11-01	102.2705	102.1061
1988-12-01	102.3229	101.9473
1989-0

Note: Datasets/Mendeley/MND_004.txt
Establishment of Cooperia oncophora in calves				
Christian W. Sauermann (a), Siva Ganesh (a), Ian Scott (b), William E. Pomroy (b) , Dave M. Leathwick (a)				
(a) AgResearch Grasslands, Private Bag 11008, Palmerston North 4442, New Zealand				
(b) School of Veterinary Science, Massey University, Private Bag 11222, Palmerston North 4442, New Zealand				
(https://doi.org/10.1016/j.vetpar.2018.11.001)
				
The establishment rate of Cooperia oncophora related to host age and previous infection was investigated in young calves.				
Parasite-free calves of similar age were kept on a feed pad and divided into multiple groups, based on their age and weight.				
At the start of the experiment one group (A, n=4) received a single challenge dose of 15,000 L3 of a macrocyclic lactone resistant isolate of C. oncophora.				
Two groups (C & D, each n=16) received trickle infections with an ivermectin-susceptible C. oncophora isolate of 2,000 or 10,000 infective stage larvae per week, one group (B, n=16) was kept as an uninfected control.				
At intervals over a period of 11 months two animals from each group were challenged with 15,000 infective stage larvae of an ivermectin-resistant isolate, 25 days later orally treated with ivermectin (0.2 mg/kg; Ivomec) and 5 days later slaughtered for worm counts. 				
On three occasions additional calves (E, n=2) were included with the high trickle infection rate group but also received an ivermectin treatment before challenge to remove the existing worm burden.				
Further calves (F, n=4) of similar age were introduced at the beginning and the end of the experiment to determine the effect of larval age on establishment rate.				
				
id = individual ear tag identification number of experimental animal				
trickle_infection = number of ivermectin susceptible Cooperia oncophora infective third stage larvae use for inoculation twice per week				
group = experimental group				
day = experiment day (starting day = zero)				
fec = faecal egg count (epg)				
				
id	trickle_infection	group	day	fec
1507	0	B	7	0
1518	0	B	7	0
1513	0	B	7	0
1527	0	B	7	0
1511	0	B	7	0
1556	0	B	7	0
1517	0	B	7	0
1553	0	B	7	0
1510	0	B	7	0
1520	0	B	7	0
1503	0	B	7	0
1524	0	B	7	0
1525	0	B	7	0
1528	0	B	7	0
1505	0	B	7	0
1516	0	B	7	0
1514	0	B	7	0
1717	1000	C	7	0
1761	1000	C	7	0
1715	1000	C	7	0
1720	1000	C	7	0
1703	1000	C	7	0
1708	1000	C	7	0
1714	1000	C	7	0
1729	1000	C	7	0
1707	1000	C	7	0
1724	1000	C	7	0
1710	1000	C	7	0
1725	1000	C	7	0
1722	1000	C	7	0
1758	1000	C	7	0
1709	1000	C	7	0
1721	1000	C	7	0
1716	1000	C	7	0
2200	5000	D	7	0
2364	5000	D	7	0
2102	5000	D	7	0
2141	5000	E	7	0
2347	5000	E	7	0
2396	5000	D	7	0
2110	5000	D	7	0
2185	5000	D	7	0
2187	5000	E	7	0
2315	5000	E	7	0
2202	5000	E	7	0
2435	5000	D	7	0
2440	5000	D	7	0
2511	5000	E	7	0
2112	5000	D	7	0
2535	5000	D	7	0
2321	5000	D	7	0
2646	5000	D	7	0
2318	5000	D	7	0
2443	5000	D	7	0
2345	5000	D	7	0
2355	5000	D	7	0
2437	5000	D	7	0
1507	0	B	21	0
1518	0	B	21	0
1513	0	B	21	0
1527	0	B	21	0
1511	0	B	21	0
1556	0	B	21	0
15

Note: README.md
# TASHEEH: Cleaning Ill-Formed Rows in CSV Files
This repository contains the code for **TASHEEH**, a Java-based tool designed to clean ill-formed rows in CSV files. It processes a raw CSV file and outputs a cleaned version by correcting incorrectly formatted rows.

## Running the Program
TASHEEH can be executed in two ways: **Command-Line Mode (CLI) or GUI Mode**.

### Running the JAR file via command line with two arguments (CLI Mode)
```sh
java -jar tasheeh.jar "path/to/input.csv" "path/to/output.csv" 
```
- First argument: Path to the input CSV file.
- Second argument: Path where the cleaned CSV file will be saved.

### Running the JAR File Without Arguments (GUI Mode)
```sh
java -jar tasheeh.jar
```
- Choose the input CSV file.
- Choose the output file.


## Output
- The program removes ill-formed rows and saves the cleaned CSV at the provided output path.
- A message confirms successful execution.

## Support
For any updates, open an issue in this repository.

File: MND_002.txt
#FORMAT      : EMSA/MAS Spectral Data File
#VERSION     : 1.0
#TITLE       : Spectrum 139
#DATE        : 19-APR-2019
#TIME        : 18:59
#OWNER       :
#NPOINTS     : 2048.0
#NCOLUMNS    : 1.0
#XUNITS      : keV
#YUNITS      : counts
#DATATYPE    : XY
#XPERCHAN    : 0.005
#OFFSET      : -0.1
#SIGNALTYPE  : EDS
#CHOFFSET    : 20.0
#LIVETIME    : 60.0264
#REALTIME    : 62.5149
#BEAMKV      : 10.0
#MAGCAM      : 2000.0
#XTILTSTGE   : 0.0
#AZIMANGLE   : 0.0
#ELEVANGLE   : 35.0
#XPOSITION mm: -10.3938
#YPOSITION mm: -9.5002
#ZPOSITION mm: 6.0001
##OXINSTPT   : 4
##OXINSTSTROB: 53.24
##OXINSTELEMS: 6,8,20,38
##OXINSTLABEL: 6, 0.277, C K?1_2
##OXINSTLABEL: 8, 0.525, O K?1
##OXINSTLABEL: 20, 3.692, Ca K?1
##OXINSTLABEL: 20, 4.013, Ca K?1
##OXINSTLABEL: 20, 0.341, Ca L?1,2
##OXINSTLABEL: 20, 0.303, Ca Ll
##OXINSTLABEL: 38, 1.807, Sr L?1
##OXINSTLABEL: 38, 1.649, Sr L?
##OXINSTLABEL: 38, 1.582, Sr Ll
##OXINSTLABEL: 38, 0.114, Sr M?
#SPECTRUM    : Spectral Data Starts Here
-0.10000, 0.0
-0.06500, 3.0
-0.03000, 156.0
0.00500, 791.0
0.04000, 1437.0
0.07500, 745.0
0.11000, 43.0
0.14500, 22.0
0.18000, 26.0
0.21500, 68.0
0.25000, 329.0
0.28500, 387.0
0.32000, 81.0
0.35500, 16.0
0.39000, 12.0
0.42500, 12.0
0.46000, 22.0
0.49500, 88.0
0.53000, 111.0
0.56500, 50.0
0.60000, 11.0
0.63500, 8.0
0.67000, 15.0
0.70500, 10.0
0.74000, 20.0
0.77500, 10.0
0.81000, 11.0
0.84500, 15.0
0.88000, 19.0
0.91500, 14.0
0.95000, 13.0
0.98500, 17.0
1.02000, 22.0
1.05500, 25.0
1.09000, 23.0
1.12500, 23.0
1.16000, 26.0
1.19500, 26.0
1.23000, 32.0
1.26500, 33.0
1.30000, 39.0
1.33500, 33.0
1.37000, 38.0
1.40500, 49.0
1.44000, 46.0
1.47500, 47.0
1.51000, 50.0
1.54500, 66.0
1.58000, 68.0
1.61500, 74.0
1.65000, 65.0
1.68500, 58.0
1.72000, 70.0
1.75500, 115.0
1.79000, 150.0
1.82500, 201.0
1.86000, 160.0
1.89500, 119.0
1.93000, 114.0
1.96500, 98.0
2.00000, 163.0
2.03500, 311.0
2.07000, 330.0
2.10500, 275.0
2.14000, 225.0
2.17500, 151.0
2.21000, 72.0
2.24500, 53.0
2.28000, 57.0
2.31500, 64.0
2.35000, 74.0
2.38500, 54.0
2.42000, 49.0
2.45500, 52.0
2.49000, 54.0
2.52500, 51.0
2.56000, 58.0
2.59500, 50.0
2.63000, 56.0
2.66500, 56.0
2.70000, 49.0
2.73500, 53.0
2.77000, 65.0
2.80500, 112.0
2.84000, 117.0
2.87500, 112.0
2.91000, 78.0
2.94500, 71.0
2.98000, 80.0
3.01500, 78.0
3.05000, 69.0
3.08500, 66.0
3.12000, 66.0
3.15500, 56.0
3.19000, 50.0
3.22500, 52.0
3.26000, 57.0
3.29500, 52.0
3.33000, 54.0
3.36500, 49.0
3.40000, 47.0
3.43500, 46.0
3.47000, 35.0
3.50500, 48.0
3.54000, 71.0
3.57500, 102.0
3.61000, 286.0
3.64500, 760.0
3.68000, 1295.0
3.71500, 1237.0
3.75000, 666.0
3.78500, 235.0
3.82000, 83.0
3.85500, 50.0
3.89000, 47.0
3.92500, 65.0
3.96000, 109.0
3.99500, 181.0
4.03000, 201.0
4.06500, 116.0
4.10000, 55.0
4.13500, 34.0
4.17000, 25.0
4.20500, 27.0
4.24000, 22.0
4.27500, 26.0
4.31000, 31.0
4.34500, 24.0
4.38000, 32.0
4.41500, 29.0
4.45000, 22.0
4.48500, 21.0
4.52000, 26.0
4.55500, 25.0
4.59000, 22.0
4.62500, 29.0
4.66000, 32.0
4.69500, 20.0
4.73000, 24.0
4.76500, 26.0
4.80000, 21.0
4.83500, 22.0
4.87000, 21.0
4.90500, 24.0
4.94000, 23.0
4.97500, 21.0
5.01000, 21.0
5.04500, 24.0
5.08000, 16.0
5.11500, 23.0
5.15000, 19.0
5.18500, 24.0
5.22000, 23.0
5.25500, 20.0
5.29000, 23.0
5.32500, 18.0
5.36000, 21.0
5.39500, 21.0
5.43000, 20.0
5.46500, 24.0
5.50000, 18.0
5.53500, 22.0
5.57000, 21.0
5.60500, 19.0
5.64000, 21.0
5.67500, 25.0
5.71000, 22.0
5.74500, 20.0
5.78000, 20.0
5.81500, 19.0
5.85000, 20.0
5.88500, 20.0
5.92000, 20.0
5.95500, 21.0
5.99000, 23.0
6.02500, 21.0
6.06000, 16.0
6.09500, 18.0
6.13000, 18.0
6.16500, 17.0
6.20000, 16.0
6.23500, 23.0
6.27000, 22.0
6.30500, 18.0
6.34000, 16.0
6.37500, 19.0
6.41000, 14.0
6.44500, 12.0
6.48000, 19.0
6.51500, 21.0
6.55000, 19.0
6.58500, 13.0
6.62000, 19.0
6.65500, 17.0
6.69000, 16.0
6.72500, 12.0
6.76000, 12.0
6.79500, 18.0
6.83000, 12.0
6.86500, 14.0
6.90000, 13.0
6.93500, 11.0
6.97000, 14.0
7.00500, 19.0
7.04000, 19.0
7.07500, 11.0
7.11000, 8.0
7.14500, 9.0
7.18000, 11.0
7.21500, 11.0
7.25000, 15.0
7.28500, 14.0
7.32000, 9.0
7.35500, 14.0
7.39000, 15.0
7.42500, 11.0
7.46000, 8.0
7.49500, 18.0
7.53000, 13.0
7.56500, 8.0
7.60000, 12.0
7.63500, 8.0
7.67000, 10.0
7.70500, 14.0
7.74000, 14.0
7.77500, 17.0
7.81000, 10.0
7.84500, 10.0
7.88000, 10.0
7.91500, 9.0
7.95000, 13.0
7.98500, 6.0
8.02000, 7.0
8.05500, 13.0
8.09000, 6.0
8.12500, 5.0
8.16000, 11.0
8.19500, 10.0
8.23000, 6.0
8.26500, 9.0
8.30000, 8.0
8.33500, 15.0
8.37000, 8.0
8.40500, 4.0
8.44000, 8.0
8.47500, 9.0
8.51000, 9.0
8.54500, 9.0
8.58000, 5.0
8.61500, 6.0
8.65000, 5.0
8.68500, 3.0
8.72000, 7.0
8.75500, 8.0
8.79000, 3.0
8.82500, 7.0
8.86000, 5.0
8.89500, 3.0
8.93000, 5.0
8.96500, 4.0
9.00000, 6.0
9.03500, 7.0
9.07000, 6.0
9.10500, 7.0
9.14000, 4.0
9.17500, 6.0
9.21000, 4.0
9.24500, 2.0
9.28000, 4.0
9.31500, 6.0
9.35000, 5.0
9.38500, 4.0
9.42000, 5.0
9.45500, 3.0
9.49000, 3.0
9.52500, 4.0
9.56000, 4.0
9.59500, 2.0
9.63000, 4.0
9.66500, 3.0
9.70000, 3.0
9.73500, 7.0
9.77000, 2.0
9.80500, 2.0
9.84000, 0.0
9.87500, 2.0
9.91000, 0.0
9.94500, 0.0
9.98000, 0.0
10.01500, 0.0
10.05000, 0.0
10.08500, 0.0
10.12000, 0.0
10.13500, 0.0
#ENDOFDATA   :